# Voltage at carriage position [V], Waveguide signal with short-circuit wall [V], Waveguide signal for bolometer [V]
1.41 0.39 3.37
1.51 0.79 3.09
1.61 1.28 2.78
1.70 1.84 2.46
1.80 2.43 2.15
1.90 3.00 1.88
2.00 3.53 1.65
2.09 3.96 1.50
2.19 4.28 1.42
2.29 4.47 1.43
2.39 4.50 1.51
2.48 4.38 1.68
2.58 4.11 1.91
2.68 3.72 2.19
2.78 3.23 2.50
2.87 2.67 2.82
2.97 2.08 3.13
3.07 1.51 3.41
3.17 0.98 3.63
3.26 0.54 3.79
3.36 0.22 3.86
3.46 0.04 3.86
3.55 0.01 3.77
3.65 0.13 3.61
3.75 0.39 3.37
3.85 0.79 3.09
3.94 1.28 2.78
4.04 1.84 2.46
4.14 2.43 2.15
4.24 3.00 1.88
4.33 3.53 1.65
4.43 3.96 1.50
4.53 4.28 1.42
4.63 4.47 1.43
4.72 4.50 1.51
4.82 4.38 1.68
4.92 4.11 1.91
5.02 3.72 2.19
5.11 3.23 2.50
5.21 2.67 2.82
5.31 2.08 3.13
5.41 1.51 3.41
5.50 0.98 3.63
5.60 0.54 3.79
5.70 0.22 3.86
5.80 0.04 3.86
5.89 0.01 3.77
5.99 0.13 3.61
6.09 0.39 3.37
6.19 0.79 3.09
6.28 1.28 2.78
6.38 1.84 2.46
6.48 2.43 2.15
6.58 3.00 1.88
6.67 3.53 1.65
6.77 3.96 1.50
6.87 4.28 1.42
